{
  "resourceType": "Bundle",
  "type": "batch",
  "entry": [
    {
      "fullUrl": "urn:uuid:cdef4ce4-eb7e-33de-1f3a-3a6dcebd3439",
      "resource": {
        "resourceType": "Composition",
        "id": "cdef4ce4-eb7e-33de-1f3a-3a6dcebd3439",
        "identifier": {
          "use": "official",
          "value": "2.16.840.1.113883.19.4.27"
        },
        "status": "final",
        "type": {
          "coding": [
            {
              "code": "18748-4",
              "display": "Diagnostic Imaging Report",
              "system": "http://loinc.org"
            }
          ]
        },
        "date": "2005-03-29T17:15:04-05:00",
        "title": "Chest X-Ray, PA and LAT View",
        "confidentiality": "N",
        "attester": [
          {
            "mode": "legal",
            "time": "2005-03-29T22:44:11-05:00",
            "party": {
              "reference": "Practitioner/e1ba9b33-b82e-7558-1732-131914e8e2cc"
            }
          }
        ],
        "event": [
          {
            "period": {
              "start": "2006-08-23T22:24:00+05:00"
            }
          }
        ],
        "section": [
          {
            "title": "DICOM Object Catalog",
            "text": {
              "status": "generated",
              "div": "<div xmlns=\"http://www.w3.org/1999/xhtml\">DICOM Object Catalog</div>"
            },
            "code": {
              "coding": [
                {
                  "code": "121181",
                  "display": "DICOM Object Catalog",
                  "system": "urn:oid:1.2.840.10008.2.16.4"
                }
              ]
            },
            "mode": "snapshot"
          },
          {
            "title": "Indications for Procedure",
            "text": {
              "status": "generated",
              "div": "<div xmlns=\"http://www.w3.org/1999/xhtml\">Indications for Procedure</div>"
            },
            "code": {
              "coding": [
                {
                  "code": "121109",
                  "display": "Indications for Procedure",
                  "system": "urn:oid:1.2.840.10008.2.16.4"
                }
              ]
            },
            "mode": "snapshot"
          },
          {
            "title": "History",
            "text": {
              "status": "generated",
              "div": "<div xmlns=\"http://www.w3.org/1999/xhtml\">History</div>"
            },
            "code": {
              "coding": [
                {
                  "code": "11329-0",
                  "display": "History",
                  "system": "http://loinc.org"
                }
              ]
            },
            "mode": "snapshot"
          },
          {
            "title": "Findings",
            "text": {
              "status": "generated",
              "div": "<div xmlns=\"http://www.w3.org/1999/xhtml\">Findings</div>"
            },
            "code": {
              "coding": [
                {
                  "code": "121070",
                  "display": "Findings",
                  "system": "urn:oid:1.2.840.10008.2.16.4"
                }
              ]
            },
            "mode": "snapshot"
          },
          {
            "title": "Impressions",
            "text": {
              "status": "generated",
              "div": "<div xmlns=\"http://www.w3.org/1999/xhtml\">Impressions</div>"
            },
            "code": {
              "coding": [
                {
                  "code": "121072",
                  "display": "Impressions",
                  "system": "urn:oid:1.2.840.10008.2.16.4"
                }
              ]
            },
            "mode": "snapshot"
          }
        ],
        "subject": {
          "reference": "Patient/ed5160e5-df41-5e17-49f6-a8e0873676bc"
        },
        "encounter": {
          "reference": "Encounter/b4d9de2a-5f31-773c-6bc9-a19ddc23af7d"
        },
        "custodian": {
          "reference": "Organization/93f37570-5790-ddaa-f614-1a827f39d4ce"
        },
        "author": [
          {
            "reference": "Practitioner/7876b236-bb9c-7e0b-4e50-d35b6f2ed1b2"
          }
        ]
      },
      "request": {
        "method": "PUT",
        "url": "Composition/cdef4ce4-eb7e-33de-1f3a-3a6dcebd3439"
      }
    },
    {
      "fullUrl": "urn:uuid:e1ba9b33-b82e-7558-1732-131914e8e2cc",
      "resource": {
        "resourceType": "Practitioner",
        "id": "e1ba9b33-b82e-7558-1732-131914e8e2cc",
        "meta": {
          "profile": [
            "http://hl7.org/fhir/us/core/StructureDefinition/us-core-practitioner"
          ]
        },
        "identifier": [
          {
            "system": "urn:oid:2.16.840.1.113883.19.5",
            "value": "KP00017"
          }
        ],
        "name": [
          {
            "family": "Seven",
            "given": [
              "Henry"
            ]
          }
        ],
        "address": [
          {
            "line": [
              "21 North Ave."
            ],
            "city": "Burlington",
            "state": "MA",
            "country": "USA",
            "postalCode": "02368"
          }
        ],
        "telecom": [
          {
            "system": "phone",
            "value": "(555)555-1003",
            "use": "work"
          }
        ]
      },
      "request": {
        "method": "PUT",
        "url": "Practitioner/e1ba9b33-b82e-7558-1732-131914e8e2cc"
      }
    },
    {
      "fullUrl": "urn:uuid:b4d9de2a-5f31-773c-6bc9-a19ddc23af7d",
      "resource": {
        "resourceType": "Encounter",
        "id": "b4d9de2a-5f31-773c-6bc9-a19ddc23af7d",
        "status": "unknown",
        "identifier": [
          {
            "system": "urn:oid:1.3.6.4.1.4.1.2835.12",
            "value": "9937012"
          }
        ]
      },
      "request": {
        "method": "PUT",
        "url": "Encounter/b4d9de2a-5f31-773c-6bc9-a19ddc23af7d"
      }
    },
    {
      "fullUrl": "urn:uuid:93f37570-5790-ddaa-f614-1a827f39d4ce",
      "resource": {
        "resourceType": "Organization",
        "id": "93f37570-5790-ddaa-f614-1a827f39d4ce",
        "identifier": [
          {
            "system": "urn:ietf:rfc:3986",
            "value": "urn:uuid:2.16.840.1.113883.19.5"
          }
        ],
        "name": "Good Health Clinic",
        "address": [
          {
            "use": "work",
            "line": [
              "17 Daws Rd."
            ],
            "city": "Blue Bell",
            "state": "MA",
            "country": "USA",
            "postalCode": "02368"
          }
        ],
        "telecom": [
          {
            "system": "phone",
            "value": "(555)555-1212",
            "use": "work"
          }
        ]
      },
      "request": {
        "method": "PUT",
        "url": "Organization/93f37570-5790-ddaa-f614-1a827f39d4ce"
      }
    },
    {
      "fullUrl": "urn:uuid:7876b236-bb9c-7e0b-4e50-d35b6f2ed1b2",
      "resource": {
        "resourceType": "Practitioner",
        "id": "7876b236-bb9c-7e0b-4e50-d35b6f2ed1b2",
        "meta": {
          "profile": [
            "http://hl7.org/fhir/us/core/StructureDefinition/us-core-practitioner"
          ]
        },
        "identifier": [
          {
            "system": "http://hl7.org/fhir/sid/us-npi",
            "value": "KP00017"
          }
        ],
        "name": [
          {
            "family": "Seven",
            "given": [
              "Henry"
            ]
          }
        ],
        "address": [
          {
            "line": [
              "21 North Ave."
            ],
            "city": "Burlington",
            "state": "MA",
            "country": "USA",
            "postalCode": "02368"
          }
        ],
        "telecom": [
          {
            "system": "phone",
            "value": "(555)555-1003",
            "use": "work"
          }
        ],
        "qualification": [
          {
            "code": {
              "coding": [
                {
                  "code": "200000000X",
                  "display": "Allopathic & Osteopathic Physicians",
                  "system": "http://nucc.org/provider-taxonomy"
                }
              ]
            }
          }
        ]
      },
      "request": {
        "method": "PUT",
        "url": "Practitioner/7876b236-bb9c-7e0b-4e50-d35b6f2ed1b2"
      }
    },
    {
      "fullUrl": "urn:uuid:ed5160e5-df41-5e17-49f6-a8e0873676bc",
      "resource": {
        "resourceType": "Patient",
        "id": "ed5160e5-df41-5e17-49f6-a8e0873676bc",
        "meta": {
          "profile": [
            "http://hl7.org/fhir/us/core/StructureDefinition/us-core-patient"
          ]
        },
        "identifier": [
          {
            "system": "urn:oid:2.16.840.1.113883.19.5",
            "value": "12345"
          }
        ],
        "name": [
          {
            "use": "usual",
            "family": "Everyman",
            "given": [
              "Adam"
            ]
          }
        ],
        "birthDate": "1954-11-25",
        "gender": "male",
        "extension": [
          {
            "url": "http://hl7.org/fhir/us/core/StructureDefinition/us-core-race",
            "extension": [
              {
                "url": "ombCategory",
                "valueCoding": {
                  "code": "2106-3",
                  "display": "White"
                }
              },
              {
                "url": "text",
                "valueString": "White"
              }
            ]
          },
          {
            "url": "http://hl7.org/fhir/us/core/StructureDefinition/us-core-ethnicity",
            "extension": [
              {
                "url": "ombCategory",
                "valueCoding": {
                  "code": "2186-5",
                  "display": "Not Hispanic or Latino"
                }
              },
              {
                "url": "text",
                "valueString": "Not Hispanic or Latino"
              }
            ]
          }
        ],
        "address": [
          {
            "use": "home",
            "line": [
              "17 Daws Rd."
            ],
            "city": "Blue Bell",
            "state": "MA",
            "country": "USA",
            "postalCode": "02368"
          }
        ],
        "telecom": [
          {
            "system": "phone",
            "value": "(781)555-1212",
            "use": "home"
          }
        ],
        "communication": [
          {
            "language": {
              "coding": [
                {
                  "system": "urn:ietf:bcp:47"
                }
              ]
            },
            "preferred": true
          }
        ]
      },
      "request": {
        "method": "PUT",
        "url": "Patient/ed5160e5-df41-5e17-49f6-a8e0873676bc"
      }
    },
    {
      "fullUrl": "urn:uuid:c381d143-1762-43d8-9fb2-df8fc9e51d77",
      "resource": {
        "resourceType": "RelatedPerson",
        "id": "c381d143-1762-43d8-9fb2-df8fc9e51d77",
        "relationship": [
          {
            "coding": [
              {
                "code": "GRFTH",
                "display": "Grandfather",
                "system": "urn:oid:2.16.840.1.113883.5.111"
              }
            ]
          }
        ],
        "name": [
          {
            "family": "Relative",
            "given": [
              "Ralph"
            ]
          }
        ],
        "telecom": [
          {
            "system": "phone",
            "value": "(781)555-1212",
            "use": "home"
          }
        ],
        "address": [
          {
            "use": "home",
            "line": [
              "17 Daws Rd."
            ],
            "city": "Blue Bell",
            "state": "MA",
            "country": "USA",
            "postalCode": "02368"
          }
        ],
        "patient": {
          "reference": "Patient/ed5160e5-df41-5e17-49f6-a8e0873676bc"
        }
      },
      "request": {
        "method": "PUT",
        "url": "RelatedPerson/c381d143-1762-43d8-9fb2-df8fc9e51d77"
      }
    },
    {
      "fullUrl": "urn:uuid:12cf0fbc-0e1a-a04e-f22d-1c3bce9ccb34",
      "resource": {
        "resourceType": "DocumentReference",
        "id": "12cf0fbc-0e1a-a04e-f22d-1c3bce9ccb34",
        "type": {
          "coding": [
            {
              "code": "18748-4",
              "display": "Diagnostic Imaging Report",
              "system": "http://loinc.org"
            }
          ]
        },
        "date": "2022-03-24T16:13:53.827Z",
        "status": "current",
        "content": [
          {
            "attachment": {
              "contentType": "text/plain",
              "data": "",
              "hash": "NjFkYTNiZmY0NzYzNTIzMjVlOWM0Y2U5NjFlMzFkNTYyZmM4ZjBlNw=="
            }
          }
        ]
      },
      "request": {
        "method": "PUT",
        "url": "DocumentReference/12cf0fbc-0e1a-a04e-f22d-1c3bce9ccb34"
      }
    }
  ]
}