{
  "resourceType": "Bundle",
  "type": "batch",
  "timestamp": "2014-10-06T06:45:00Z",
  "identifier": {
    "value": "182"
  },
  "id": "4d7652e0-2e87-c4b4-72d8-614f50d75e88",
  "entry": [
    {
      "fullUrl": "urn:uuid:e1f09f39-99e6-8c9e-4b3d-581fe25d696b",
      "resource": {
        "resourceType": "MessageHeader",
        "id": "e1f09f39-99e6-8c9e-4b3d-581fe25d696b",
        "source": {
          "name": "SomeSystem",
          "_endpoint": {
            "extension": [
              {
                "url": "http://hl7.org/fhir/StructureDefinition/data-absent-reason",
                "valueCode": "unknown"
              }
            ]
          }
        },
        "destination": [
          {
            "name": "TransformationAgent",
            "_endpoint": {
              "extension": [
                {
                  "url": "http://hl7.org/fhir/StructureDefinition/data-absent-reason",
                  "valueCode": "unknown"
                }
              ]
            }
          }
        ],
        "meta": {
          "tag": [
            {
              "code": "T",
              "system": "http://terminology.hl7.org/CodeSystem/v2-0103"
            }
          ]
        },
        "eventCoding": {
          "code": "R01",
          "system": "http://terminology.hl7.org/CodeSystem/v2-0003",
          "display": "ORU^R01"
        }
      },
      "request": {
        "method": "PUT",
        "url": "MessageHeader/e1f09f39-99e6-8c9e-4b3d-581fe25d696b"
      }
    },
    {
      "fullUrl": "urn:uuid:9f79a1ce-a1d5-c6dd-a0d6-3bc75109716c",
      "resource": {
        "resourceType": "Provenance",
        "id": "9f79a1ce-a1d5-c6dd-a0d6-3bc75109716c",
        "text": {
          "status": "generated",
          "div": "<div xmlns=\"http://www.w3.org/1999/xhtml\"><p><span>Resource bundle generated on 2022-03-24T14:52:07.108Z using Microsoft FHIR Converter.</span><span>Template Version: TEMPLATE_VERSION_PLACEHOLDER.</span><span>Template URL: https://github.com/microsoft/FHIR-Converter/releases/download/vTEMPLATE_VERSION_PLACEHOLDER/Hl7v2DefaultTemplates.tar.gz.</span><span>Root template: ORU_R01.</span></p></div>"
        },
        "occurredDateTime": "2014-10-06T06:45:00Z",
        "recorded": "2014-10-06T06:45:00Z",
        "agent": [
          {
            "type": {
              "coding": [
                {
                  "code": "author",
                  "system": "http://terminology.hl7.org/CodeSystem/provenance-participant-type"
                }
              ]
            }
          }
        ],
        "activity": {
          "coding": [
            {
              "display": "ORU^R01^"
            }
          ]
        },
        "target": [
          {
            "reference": "Bundle/4d7652e0-2e87-c4b4-72d8-614f50d75e88"
          }
        ]
      },
      "request": {
        "method": "PUT",
        "url": "Provenance/9f79a1ce-a1d5-c6dd-a0d6-3bc75109716c"
      }
    },
    {
      "fullUrl": "urn:uuid:bab5ca58-f272-4c06-4b3f-f9661e45a22b",
      "resource": {
        "resourceType": "Patient",
        "id": "bab5ca58-f272-4c06-4b3f-f9661e45a22b",
        "identifier": [
          {
            "value": "10006579",
            "type": {
              "coding": [
                {
                  "code": "MR",
                  "system": "http://terminology.hl7.org/CodeSystem/v2-0203",
                  "display": "Medical record number"
                }
              ]
            },
            "system": "http://example.com/v2-to-fhir-converter/assigning-authority-local-system-1"
          },
          {
            "value": "123121234",
            "type": {
              "coding": [
                {
                  "code": "SB",
                  "system": "http://terminology.hl7.org/CodeSystem/v2-0203"
                }
              ]
            },
            "system": "http://hl7.org/fhir/sid/us-ssn"
          }
        ],
        "name": [
          {
            "family": "DUCK",
            "given": [
              "DONALD",
              "D"
            ]
          }
        ],
        "birthDate": "1924-10-10",
        "gender": "male",
        "address": [
          {
            "line": [
              "111 DUCK ST"
            ],
            "city": "FOWL",
            "state": "CA",
            "postalCode": "999990000",
            "type": "postal"
          },
          {
            "district": "1"
          }
        ],
        "telecom": [
          {
            "value": "8885551212",
            "use": "home"
          },
          {
            "value": "8885551212",
            "use": "work"
          }
        ],
        "communication": [
          {
            "language": {
              "coding": [
                {
                  "code": "1",
                  "display": "1"
                }
              ]
            },
            "preferred": true
          }
        ],
        "maritalStatus": {
          "coding": [
            {
              "code": "2",
              "display": "2"
            }
          ]
        },
        "deceasedBoolean": false,
        "extension": [
          {
            "url": "http://hl7.org/fhir/us/core/StructureDefinition/us-core-race",
            "extension": [
              {
                "url": "ombCategory",
                "valueCoding": {
                  "code": "1",
                  "display": "1"
                }
              },
              {
                "url": "text",
                "valueString": "1"
              }
            ]
          }
        ]
      },
      "request": {
        "method": "PUT",
        "url": "Patient/bab5ca58-f272-4c06-4b3f-f9661e45a22b"
      }
    },
    {
      "fullUrl": "urn:uuid:58bd65b3-7fe0-55cf-19e9-b3cfbc026fbf",
      "resource": {
        "resourceType": "Account",
        "id": "58bd65b3-7fe0-55cf-19e9-b3cfbc026fbf",
        "identifier": [
          {
            "value": "40007716",
            "type": {
              "coding": [
                {
                  "code": "VN",
                  "system": "http://terminology.hl7.org/CodeSystem/v2-0203",
                  "display": "Visit number"
                }
              ]
            },
            "system": "http://example.com/v2-to-fhir-converter/assigning-authority-local-system-AccMgr"
          }
        ],
        "status": "active",
        "subject": [
          {
            "reference": "Patient/bab5ca58-f272-4c06-4b3f-f9661e45a22b"
          }
        ]
      },
      "request": {
        "method": "PUT",
        "url": "Account/58bd65b3-7fe0-55cf-19e9-b3cfbc026fbf"
      }
    },
    {
      "fullUrl": "urn:uuid:f736fbb2-aafc-4e52-abb9-20d77d01d302",
      "resource": {
        "resourceType": "Observation",
        "id": "f736fbb2-aafc-4e52-abb9-20d77d01d302",
        "status": "unknown",
        "code": {
          "coding": [
            {
              "code": "11156-7",
              "display": "LEUKOCYTES",
              "system": "http://loinc.org"
            }
          ]
        },
        "subject": {
          "reference": "Patient/bab5ca58-f272-4c06-4b3f-f9661e45a22b"
        },
        "extension": [
          {
            "url": "http://example.com/v2-to-fhir-converter/Observation_Status",
            "valueCodeableConcept": {
              "coding": [
                {
                  "code": "I",
                  "display": "In Process",
                  "system": "http://terminology.hl7.org/CodeSystem/v2-0085"
                }
              ],
              "text": "In Process"
            }
          }
        ],
        "basedOn": [
          {
            "reference": "ServiceRequest/5c4619c4-2cf9-44bb-a2cd-262665709d4a"
          }
        ]
      },
      "request": {
        "method": "PUT",
        "url": "Observation/f736fbb2-aafc-4e52-abb9-20d77d01d302"
      }
    },
    {
      "fullUrl": "urn:uuid:6f5e8de7-e9dd-65c8-0fe0-d879f361c6d8",
      "resource": {
        "resourceType": "Observation",
        "id": "6f5e8de7-e9dd-65c8-0fe0-d879f361c6d8",
        "status": "preliminary",
        "code": {
          "coding": [
            {
              "code": "11273-0",
              "display": "ERYTHROCYTES",
              "system": "http://loinc.org"
            }
          ]
        },
        "valueQuantity": {
          "value": 4.06,
          "unit": "tera.l-1"
        },
        "effectiveDateTime": "2014-10-06T06:27:00Z",
        "interpretation": [
          {
            "coding": [
              {
                "code": "N",
                "display": "Normal",
                "system": "http://terminology.hl7.org/CodeSystem/v3-ObservationInterpretation"
              }
            ]
          }
        ],
        "subject": {
          "reference": "Patient/bab5ca58-f272-4c06-4b3f-f9661e45a22b"
        },
        "extension": [
          {
            "url": "http://example.com/v2-to-fhir-converter/Observation_Status",
            "valueCodeableConcept": {
              "coding": [
                {
                  "code": "P",
                  "display": "Preliminary",
                  "system": "http://terminology.hl7.org/CodeSystem/v2-0085"
                }
              ],
              "text": "Preliminary"
            }
          }
        ],
        "basedOn": [
          {
            "reference": "ServiceRequest/5c4619c4-2cf9-44bb-a2cd-262665709d4a"
          }
        ]
      },
      "request": {
        "method": "PUT",
        "url": "Observation/6f5e8de7-e9dd-65c8-0fe0-d879f361c6d8"
      }
    },
    {
      "fullUrl": "urn:uuid:fa77427d-7606-99a5-ae91-f316de160668",
      "resource": {
        "resourceType": "Observation",
        "id": "fa77427d-7606-99a5-ae91-f316de160668",
        "status": "unknown",
        "code": {
          "coding": [
            {
              "code": "20509-6",
              "display": "HEMOGLOBIN",
              "system": "http://loinc.org"
            }
          ]
        },
        "subject": {
          "reference": "Patient/bab5ca58-f272-4c06-4b3f-f9661e45a22b"
        },
        "extension": [
          {
            "url": "http://example.com/v2-to-fhir-converter/Observation_Status",
            "valueCodeableConcept": {
              "coding": [
                {
                  "code": "I",
                  "display": "In Process",
                  "system": "http://terminology.hl7.org/CodeSystem/v2-0085"
                }
              ],
              "text": "In Process"
            }
          }
        ],
        "basedOn": [
          {
            "reference": "ServiceRequest/5c4619c4-2cf9-44bb-a2cd-262665709d4a"
          }
        ]
      },
      "request": {
        "method": "PUT",
        "url": "Observation/fa77427d-7606-99a5-ae91-f316de160668"
      }
    },
    {
      "fullUrl": "urn:uuid:e8be578a-267e-864d-eee7-21df040facdd",
      "resource": {
        "resourceType": "Observation",
        "id": "e8be578a-267e-864d-eee7-21df040facdd",
        "status": "preliminary",
        "code": {
          "coding": [
            {
              "code": "20570-8",
              "display": "HEMATOCRIT",
              "system": "http://loinc.org"
            }
          ]
        },
        "valueQuantity": {
          "value": 40.1,
          "unit": "%"
        },
        "effectiveDateTime": "2014-10-06T08:30:00+08:00",
        "interpretation": [
          {
            "coding": [
              {
                "code": "N",
                "display": "Normal",
                "system": "http://terminology.hl7.org/CodeSystem/v3-ObservationInterpretation"
              }
            ]
          }
        ],
        "subject": {
          "reference": "Patient/bab5ca58-f272-4c06-4b3f-f9661e45a22b"
        },
        "extension": [
          {
            "url": "http://example.com/v2-to-fhir-converter/Observation_Status",
            "valueCodeableConcept": {
              "coding": [
                {
                  "code": "P",
                  "display": "Preliminary",
                  "system": "http://terminology.hl7.org/CodeSystem/v2-0085"
                }
              ],
              "text": "Preliminary"
            }
          }
        ],
        "basedOn": [
          {
            "reference": "ServiceRequest/5c4619c4-2cf9-44bb-a2cd-262665709d4a"
          }
        ]
      },
      "request": {
        "method": "PUT",
        "url": "Observation/e8be578a-267e-864d-eee7-21df040facdd"
      }
    },
    {
      "fullUrl": "urn:uuid:4e088562-d23b-7850-733a-32f2e0ef18f9",
      "resource": {
        "resourceType": "Observation",
        "id": "4e088562-d23b-7850-733a-32f2e0ef18f9",
        "status": "final",
        "code": {
          "coding": [
            {
              "code": "11125-2",
              "display": "PLATELETS",
              "system": "http://loinc.org"
            }
          ]
        },
        "valueQuantity": {
          "value": 221,
          "unit": "giga.l-1"
        },
        "effectiveDateTime": "2014-10-06T08:30:00+08:00",
        "interpretation": [
          {
            "coding": [
              {
                "code": "N",
                "display": "Normal",
                "system": "http://terminology.hl7.org/CodeSystem/v3-ObservationInterpretation"
              }
            ]
          }
        ],
        "subject": {
          "reference": "Patient/bab5ca58-f272-4c06-4b3f-f9661e45a22b"
        },
        "extension": [
          {
            "url": "http://example.com/v2-to-fhir-converter/Observation_Status",
            "valueCodeableConcept": {
              "coding": [
                {
                  "code": "F",
                  "display": "Final",
                  "system": "http://terminology.hl7.org/CodeSystem/v2-0085"
                }
              ],
              "text": "Final"
            }
          }
        ],
        "basedOn": [
          {
            "reference": "ServiceRequest/5c4619c4-2cf9-44bb-a2cd-262665709d4a"
          }
        ]
      },
      "request": {
        "method": "PUT",
        "url": "Observation/4e088562-d23b-7850-733a-32f2e0ef18f9"
      }
    },
    {
      "fullUrl": "urn:uuid:5c4619c4-2cf9-44bb-a2cd-262665709d4a",
      "resource": {
        "resourceType": "ServiceRequest",
        "id": "5c4619c4-2cf9-44bb-a2cd-262665709d4a",
        "status": "active",
        "intent": "filler-order",
        "identifier": [
          {
            "value": "88502218",
            "type": {
              "coding": [
                {
                  "code": "PLAC",
                  "system": "http://terminology.hl7.org/CodeSystem/v2-0203"
                }
              ]
            }
          },
          {
            "value": "82503246",
            "type": {
              "coding": [
                {
                  "code": "FILL",
                  "system": "http://terminology.hl7.org/CodeSystem/v2-0203"
                }
              ]
            }
          }
        ],
        "code": {
          "coding": [
            {
              "code": "24317-0",
              "display": "Hemogram and platelet count, automated",
              "system": "http://loinc.org"
            }
          ]
        },
        "subject": {
          "reference": "Patient/bab5ca58-f272-4c06-4b3f-f9661e45a22b"
        },
        "requester": {
          "reference": "PractitionerRole/907170a0-a8af-89c5-5a30-6b78cdb227c5"
        },
        "specimen": [
          {
            "reference": "Specimen/57b749d8-2468-67a0-1cb0-a2c9b2614976"
          }
        ]
      },
      "request": {
        "method": "PUT",
        "url": "ServiceRequest/5c4619c4-2cf9-44bb-a2cd-262665709d4a"
      }
    },
    {
      "fullUrl": "urn:uuid:15decf11-00dc-6867-9c35-ffd79977d5b9",
      "resource": {
        "resourceType": "Practitioner",
        "id": "15decf11-00dc-6867-9c35-ffd79977d5b9",
        "name": [
          {
            "family": "URO",
            "prefix": [
              "DR"
            ]
          }
        ]
      },
      "request": {
        "method": "PUT",
        "url": "Practitioner/15decf11-00dc-6867-9c35-ffd79977d5b9"
      }
    },
    {
      "fullUrl": "urn:uuid:907170a0-a8af-89c5-5a30-6b78cdb227c5",
      "resource": {
        "resourceType": "PractitionerRole",
        "id": "907170a0-a8af-89c5-5a30-6b78cdb227c5",
        "code": [
          {
            "coding": [
              {
                "code": "ordering-provider",
                "display": "Ordering Provider",
                "system": "http://example.com/v2-to-fhir-converter/CodeSystem/PractitionerRole"
              }
            ]
          }
        ],
        "practitioner": {
          "reference": "Practitioner/15decf11-00dc-6867-9c35-ffd79977d5b9"
        }
      },
      "request": {
        "method": "PUT",
        "url": "PractitionerRole/907170a0-a8af-89c5-5a30-6b78cdb227c5"
      }
    },
    {
      "fullUrl": "urn:uuid:b2b53b7a-1881-5dbc-3c6f-a0f9dcc5f65e",
      "resource": {
        "resourceType": "DiagnosticReport",
        "id": "b2b53b7a-1881-5dbc-3c6f-a0f9dcc5f65e",
        "identifier": [
          {
            "value": "88502218",
            "type": {
              "coding": [
                {
                  "code": "PLAC",
                  "system": "http://terminology.hl7.org/CodeSystem/v2-0203"
                }
              ]
            }
          },
          {
            "value": "82503246",
            "type": {
              "coding": [
                {
                  "code": "FILL",
                  "system": "http://terminology.hl7.org/CodeSystem/v2-0203"
                }
              ]
            }
          }
        ],
        "code": {
          "coding": [
            {
              "code": "24317-0",
              "display": "Hemogram and platelet count, automated",
              "system": "http://loinc.org"
            }
          ]
        },
        "status": "final",
        "subject": {
          "reference": "Patient/bab5ca58-f272-4c06-4b3f-f9661e45a22b"
        },
        "basedOn": [
          {
            "reference": "ServiceRequest/5c4619c4-2cf9-44bb-a2cd-262665709d4a"
          }
        ],
        "specimen": [
          {
            "reference": "Specimen/57b749d8-2468-67a0-1cb0-a2c9b2614976"
          }
        ],
        "result": [
          {
            "reference": "Observation/f736fbb2-aafc-4e52-abb9-20d77d01d302"
          },
          {
            "reference": "Observation/6f5e8de7-e9dd-65c8-0fe0-d879f361c6d8"
          },
          {
            "reference": "Observation/fa77427d-7606-99a5-ae91-f316de160668"
          },
          {
            "reference": "Observation/e8be578a-267e-864d-eee7-21df040facdd"
          },
          {
            "reference": "Observation/4e088562-d23b-7850-733a-32f2e0ef18f9"
          }
        ]
      },
      "request": {
        "method": "PUT",
        "url": "DiagnosticReport/b2b53b7a-1881-5dbc-3c6f-a0f9dcc5f65e"
      }
    },
    {
      "fullUrl": "urn:uuid:57b749d8-2468-67a0-1cb0-a2c9b2614976",
      "resource": {
        "resourceType": "Specimen",
        "id": "57b749d8-2468-67a0-1cb0-a2c9b2614976",
        "identifier": [
          {
            "value": "88502218",
            "type": {
              "coding": [
                {
                  "code": "PLAC",
                  "system": "http://terminology.hl7.org/CodeSystem/v2-0203"
                }
              ]
            }
          },
          {
            "value": "82503246",
            "type": {
              "coding": [
                {
                  "code": "FILL",
                  "system": "http://terminology.hl7.org/CodeSystem/v2-0203"
                }
              ]
            }
          }
        ],
        "collection": {
          "collector": {
            "reference": "PractitionerRole/be571888-010e-9a32-e87f-f1ee1bd631a8"
          }
        }
      },
      "request": {
        "method": "PUT",
        "url": "Specimen/57b749d8-2468-67a0-1cb0-a2c9b2614976"
      }
    },
    {
      "fullUrl": "urn:uuid:da437276-fd7c-eb21-1885-4041aa59c483",
      "resource": {
        "resourceType": "Practitioner",
        "id": "da437276-fd7c-eb21-1885-4041aa59c483",
        "name": [
          {
            "family": "COLLECT",
            "given": [
              "JOHN"
            ]
          }
        ]
      },
      "request": {
        "method": "PUT",
        "url": "Practitioner/da437276-fd7c-eb21-1885-4041aa59c483"
      }
    },
    {
      "fullUrl": "urn:uuid:be571888-010e-9a32-e87f-f1ee1bd631a8",
      "resource": {
        "resourceType": "PractitionerRole",
        "id": "be571888-010e-9a32-e87f-f1ee1bd631a8",
        "practitioner": {
          "reference": "Practitioner/da437276-fd7c-eb21-1885-4041aa59c483"
        }
      },
      "request": {
        "method": "PUT",
        "url": "PractitionerRole/be571888-010e-9a32-e87f-f1ee1bd631a8"
      }
    },
    {
      "fullUrl": "urn:uuid:b24a7651-899b-734f-05e2-7fc787ef4e07",
      "resource": {
        "resourceType": "Specimen",
        "id": "b24a7651-899b-734f-05e2-7fc787ef4e07",
        "identifier": [
          {
            "value": "SpecimenID",
            "type": {
              "coding": [
                {
                  "code": "PGN",
                  "system": "http://terminology.hl7.org/CodeSystem/v2-0203"
                }
              ]
            }
          }
        ],
        "type": {
          "coding": [
            {
              "code": "BLD",
              "system": "http://terminology.hl7.org/CodeSystem/v2-0487"
            }
          ]
        },
        "collection": {
          "collectedDateTime": "2014-10-06T05:35:00+08:00"
        },
        "receivedTime": "2014-10-06T08:21:00Z",
        "status": "available"
      },
      "request": {
        "method": "PUT",
        "url": "Specimen/b24a7651-899b-734f-05e2-7fc787ef4e07"
      }
    },
    {
      "fullUrl": "urn:uuid:246bc181-06af-9b6e-dc3a-55b67681b805",
      "resource": {
        "resourceType": "Observation",
        "id": "246bc181-06af-9b6e-dc3a-55b67681b805",
        "status": "preliminary",
        "code": {
          "coding": [
            {
              "code": "23761-0",
              "display": "NEUTROPHILS/100 LEUKOCYTES",
              "system": "http://loinc.org"
            }
          ]
        },
        "valueQuantity": {
          "value": 72,
          "unit": "%"
        },
        "effectiveDateTime": "2014-10-06T06:27:00Z",
        "interpretation": [
          {
            "coding": [
              {
                "code": "N",
                "display": "Normal",
                "system": "http://terminology.hl7.org/CodeSystem/v3-ObservationInterpretation"
              }
            ]
          }
        ],
        "subject": {
          "reference": "Patient/bab5ca58-f272-4c06-4b3f-f9661e45a22b"
        },
        "specimen": {
          "reference": "Specimen/b24a7651-899b-734f-05e2-7fc787ef4e07"
        },
        "extension": [
          {
            "url": "http://example.com/v2-to-fhir-converter/Observation_Status",
            "valueCodeableConcept": {
              "coding": [
                {
                  "code": "P",
                  "display": "Preliminary",
                  "system": "http://terminology.hl7.org/CodeSystem/v2-0085"
                }
              ],
              "text": "Preliminary"
            }
          }
        ],
        "basedOn": [
          {
            "reference": "ServiceRequest/425b6ad3-9304-3f7b-2771-0aa0dcd954ca"
          }
        ]
      },
      "request": {
        "method": "PUT",
        "url": "Observation/246bc181-06af-9b6e-dc3a-55b67681b805"
      }
    },
    {
      "fullUrl": "urn:uuid:bb87b158-c6e7-8f73-0d75-cc0e148f522b",
      "resource": {
        "resourceType": "Observation",
        "id": "bb87b158-c6e7-8f73-0d75-cc0e148f522b",
        "status": "preliminary",
        "code": {
          "coding": [
            {
              "code": "26450-7",
              "display": "EOSINOPHILS/100 LEUKOCYTES",
              "system": "http://loinc.org"
            }
          ]
        },
        "valueQuantity": {
          "value": 2,
          "unit": "%"
        },
        "effectiveDateTime": "2014-10-06T06:27:00Z",
        "interpretation": [
          {
            "coding": [
              {
                "code": "N",
                "display": "Normal",
                "system": "http://terminology.hl7.org/CodeSystem/v3-ObservationInterpretation"
              }
            ]
          }
        ],
        "subject": {
          "reference": "Patient/bab5ca58-f272-4c06-4b3f-f9661e45a22b"
        },
        "specimen": {
          "reference": "Specimen/b24a7651-899b-734f-05e2-7fc787ef4e07"
        },
        "extension": [
          {
            "url": "http://example.com/v2-to-fhir-converter/Observation_Status",
            "valueCodeableConcept": {
              "coding": [
                {
                  "code": "P",
                  "display": "Preliminary",
                  "system": "http://terminology.hl7.org/CodeSystem/v2-0085"
                }
              ],
              "text": "Preliminary"
            }
          }
        ],
        "basedOn": [
          {
            "reference": "ServiceRequest/425b6ad3-9304-3f7b-2771-0aa0dcd954ca"
          }
        ]
      },
      "request": {
        "method": "PUT",
        "url": "Observation/bb87b158-c6e7-8f73-0d75-cc0e148f522b"
      }
    },
    {
      "fullUrl": "urn:uuid:ff569559-77b8-568f-7f99-4b13b16aaf61",
      "resource": {
        "resourceType": "Observation",
        "id": "ff569559-77b8-568f-7f99-4b13b16aaf61",
        "status": "preliminary",
        "code": {
          "coding": [
            {
              "code": "26478-8",
              "display": "LYMPHOCYTES/100 LEUKOCYTES",
              "system": "http://loinc.org"
            }
          ]
        },
        "valueQuantity": {
          "value": 20,
          "unit": "%"
        },
        "effectiveDateTime": "2014-10-06T06:27:00Z",
        "interpretation": [
          {
            "coding": [
              {
                "code": "N",
                "display": "Normal",
                "system": "http://terminology.hl7.org/CodeSystem/v3-ObservationInterpretation"
              }
            ]
          }
        ],
        "subject": {
          "reference": "Patient/bab5ca58-f272-4c06-4b3f-f9661e45a22b"
        },
        "specimen": {
          "reference": "Specimen/b24a7651-899b-734f-05e2-7fc787ef4e07"
        },
        "extension": [
          {
            "url": "http://example.com/v2-to-fhir-converter/Observation_Status",
            "valueCodeableConcept": {
              "coding": [
                {
                  "code": "P",
                  "display": "Preliminary",
                  "system": "http://terminology.hl7.org/CodeSystem/v2-0085"
                }
              ],
              "text": "Preliminary"
            }
          }
        ],
        "basedOn": [
          {
            "reference": "ServiceRequest/425b6ad3-9304-3f7b-2771-0aa0dcd954ca"
          }
        ]
      },
      "request": {
        "method": "PUT",
        "url": "Observation/ff569559-77b8-568f-7f99-4b13b16aaf61"
      }
    },
    {
      "fullUrl": "urn:uuid:b53f57e6-3761-bedd-0c8f-cfe2205813c0",
      "resource": {
        "resourceType": "Observation",
        "id": "b53f57e6-3761-bedd-0c8f-cfe2205813c0",
        "status": "preliminary",
        "code": {
          "coding": [
            {
              "code": "26485-3",
              "display": "MONOCYTES/100 LEUKOCYTES",
              "system": "http://loinc.org"
            }
          ]
        },
        "valueQuantity": {
          "value": 6,
          "unit": "%"
        },
        "effectiveDateTime": "2014-10-06T06:27:00Z",
        "interpretation": [
          {
            "coding": [
              {
                "code": "N",
                "display": "Normal",
                "system": "http://terminology.hl7.org/CodeSystem/v3-ObservationInterpretation"
              }
            ]
          }
        ],
        "subject": {
          "reference": "Patient/bab5ca58-f272-4c06-4b3f-f9661e45a22b"
        },
        "specimen": {
          "reference": "Specimen/b24a7651-899b-734f-05e2-7fc787ef4e07"
        },
        "extension": [
          {
            "url": "http://example.com/v2-to-fhir-converter/Observation_Status",
            "valueCodeableConcept": {
              "coding": [
                {
                  "code": "P",
                  "display": "Preliminary",
                  "system": "http://terminology.hl7.org/CodeSystem/v2-0085"
                }
              ],
              "text": "Preliminary"
            }
          }
        ],
        "basedOn": [
          {
            "reference": "ServiceRequest/425b6ad3-9304-3f7b-2771-0aa0dcd954ca"
          }
        ]
      },
      "request": {
        "method": "PUT",
        "url": "Observation/b53f57e6-3761-bedd-0c8f-cfe2205813c0"
      }
    },
    {
      "fullUrl": "urn:uuid:f57637a0-e2e3-e878-cbbb-5d0e6d017581",
      "resource": {
        "resourceType": "Observation",
        "id": "f57637a0-e2e3-e878-cbbb-5d0e6d017581",
        "status": "preliminary",
        "code": {
          "coding": [
            {
              "code": "30180-4",
              "display": "BASOPHILS/100 LEUKOCYTES",
              "system": "http://loinc.org"
            }
          ]
        },
        "valueQuantity": {
          "value": 0,
          "unit": "%"
        },
        "effectiveDateTime": "2014-10-06T06:27:00Z",
        "interpretation": [
          {
            "coding": [
              {
                "code": "N",
                "display": "Normal",
                "system": "http://terminology.hl7.org/CodeSystem/v3-ObservationInterpretation"
              }
            ]
          }
        ],
        "subject": {
          "reference": "Patient/bab5ca58-f272-4c06-4b3f-f9661e45a22b"
        },
        "specimen": {
          "reference": "Specimen/b24a7651-899b-734f-05e2-7fc787ef4e07"
        },
        "extension": [
          {
            "url": "http://example.com/v2-to-fhir-converter/Observation_Status",
            "valueCodeableConcept": {
              "coding": [
                {
                  "code": "P",
                  "display": "Preliminary",
                  "system": "http://terminology.hl7.org/CodeSystem/v2-0085"
                }
              ],
              "text": "Preliminary"
            }
          }
        ],
        "basedOn": [
          {
            "reference": "ServiceRequest/425b6ad3-9304-3f7b-2771-0aa0dcd954ca"
          }
        ]
      },
      "request": {
        "method": "PUT",
        "url": "Observation/f57637a0-e2e3-e878-cbbb-5d0e6d017581"
      }
    },
    {
      "fullUrl": "urn:uuid:425b6ad3-9304-3f7b-2771-0aa0dcd954ca",
      "resource": {
        "resourceType": "ServiceRequest",
        "id": "425b6ad3-9304-3f7b-2771-0aa0dcd954ca",
        "status": "active",
        "intent": "filler-order",
        "identifier": [
          {
            "value": "855238581",
            "type": {
              "coding": [
                {
                  "code": "PLAC",
                  "system": "http://terminology.hl7.org/CodeSystem/v2-0203"
                }
              ]
            }
          },
          {
            "value": "890775544",
            "type": {
              "coding": [
                {
                  "code": "FILL",
                  "system": "http://terminology.hl7.org/CodeSystem/v2-0203"
                }
              ]
            }
          }
        ],
        "code": {
          "coding": [
            {
              "code": "26464-8",
              "display": "Differential WBC Count, buffy coat",
              "system": "http://loinc.org"
            }
          ]
        },
        "subject": {
          "reference": "Patient/bab5ca58-f272-4c06-4b3f-f9661e45a22b"
        },
        "requester": {
          "reference": "PractitionerRole/907170a0-a8af-89c5-5a30-6b78cdb227c5"
        },
        "specimen": [
          {
            "reference": "Specimen/d01604b5-df87-3815-c011-7922059ac80c"
          }
        ]
      },
      "request": {
        "method": "PUT",
        "url": "ServiceRequest/425b6ad3-9304-3f7b-2771-0aa0dcd954ca"
      }
    },
    {
      "fullUrl": "urn:uuid:8714ee77-7429-9b69-3f67-35e77caf543d",
      "resource": {
        "resourceType": "DiagnosticReport",
        "id": "8714ee77-7429-9b69-3f67-35e77caf543d",
        "identifier": [
          {
            "value": "855238581",
            "type": {
              "coding": [
                {
                  "code": "PLAC",
                  "system": "http://terminology.hl7.org/CodeSystem/v2-0203"
                }
              ]
            }
          },
          {
            "value": "890775544",
            "type": {
              "coding": [
                {
                  "code": "FILL",
                  "system": "http://terminology.hl7.org/CodeSystem/v2-0203"
                }
              ]
            }
          }
        ],
        "code": {
          "coding": [
            {
              "code": "26464-8",
              "display": "Differential WBC Count, buffy coat",
              "system": "http://loinc.org"
            }
          ]
        },
        "status": "unknown",
        "subject": {
          "reference": "Patient/bab5ca58-f272-4c06-4b3f-f9661e45a22b"
        },
        "basedOn": [
          {
            "reference": "ServiceRequest/425b6ad3-9304-3f7b-2771-0aa0dcd954ca"
          }
        ],
        "specimen": [
          {
            "reference": "Specimen/d01604b5-df87-3815-c011-7922059ac80c"
          }
        ],
        "result": [
          {
            "reference": "Observation/246bc181-06af-9b6e-dc3a-55b67681b805"
          },
          {
            "reference": "Observation/bb87b158-c6e7-8f73-0d75-cc0e148f522b"
          },
          {
            "reference": "Observation/ff569559-77b8-568f-7f99-4b13b16aaf61"
          },
          {
            "reference": "Observation/b53f57e6-3761-bedd-0c8f-cfe2205813c0"
          },
          {
            "reference": "Observation/f57637a0-e2e3-e878-cbbb-5d0e6d017581"
          }
        ]
      },
      "request": {
        "method": "PUT",
        "url": "DiagnosticReport/8714ee77-7429-9b69-3f67-35e77caf543d"
      }
    },
    {
      "fullUrl": "urn:uuid:d01604b5-df87-3815-c011-7922059ac80c",
      "resource": {
        "resourceType": "Specimen",
        "id": "d01604b5-df87-3815-c011-7922059ac80c",
        "identifier": [
          {
            "value": "855238581",
            "type": {
              "coding": [
                {
                  "code": "PLAC",
                  "system": "http://terminology.hl7.org/CodeSystem/v2-0203"
                }
              ]
            }
          },
          {
            "value": "890775544",
            "type": {
              "coding": [
                {
                  "code": "FILL",
                  "system": "http://terminology.hl7.org/CodeSystem/v2-0203"
                }
              ]
            }
          }
        ],
        "collection": {
          "collector": {
            "reference": "PractitionerRole/be571888-010e-9a32-e87f-f1ee1bd631a8"
          }
        }
      },
      "request": {
        "method": "PUT",
        "url": "Specimen/d01604b5-df87-3815-c011-7922059ac80c"
      }
    }
  ]
}