{
  "resourceType": "Bundle",
  "type": "batch",
  "timestamp": "2014-10-06T09:31:00Z",
  "identifier": {
    "value": "ControlID"
  },
  "id": "1621d98e-0f06-6ff5-bfed-87e7a90a41b6",
  "entry": [
    {
      "fullUrl": "urn:uuid:e528daeb-ad6d-02b9-5762-640cc4c614dc",
      "resource": {
        "resourceType": "MessageHeader",
        "id": "e528daeb-ad6d-02b9-5762-640cc4c614dc",
        "source": {
          "name": "SomeSystem",
          "_endpoint": {
            "extension": [
              {
                "url": "http://hl7.org/fhir/StructureDefinition/data-absent-reason",
                "valueCode": "unknown"
              }
            ]
          }
        },
        "destination": [
          {
            "name": "TransformationAgent",
            "_endpoint": {
              "extension": [
                {
                  "url": "http://hl7.org/fhir/StructureDefinition/data-absent-reason",
                  "valueCode": "unknown"
                }
              ]
            }
          }
        ],
        "meta": {
          "tag": [
            {
              "code": "T",
              "system": "http://terminology.hl7.org/CodeSystem/v2-0103"
            }
          ]
        },
        "eventCoding": {
          "code": "R01",
          "system": "http://terminology.hl7.org/CodeSystem/v2-0003",
          "display": "ORU^R01"
        },
        "language": "EN"
      },
      "request": {
        "method": "PUT",
        "url": "MessageHeader/e528daeb-ad6d-02b9-5762-640cc4c614dc"
      }
    },
    {
      "fullUrl": "urn:uuid:9f79a1ce-a1d5-c6dd-a0d6-3bc75109716c",
      "resource": {
        "resourceType": "Provenance",
        "id": "9f79a1ce-a1d5-c6dd-a0d6-3bc75109716c",
        "text": {
          "status": "generated",
          "div": "<div xmlns=\"http://www.w3.org/1999/xhtml\"><p><span>Resource bundle generated on 2022-03-24T16:13:57.413Z using Microsoft FHIR Converter.</span><span>Template Version: TEMPLATE_VERSION_PLACEHOLDER.</span><span>Template URL: https://github.com/microsoft/FHIR-Converter/releases/download/vTEMPLATE_VERSION_PLACEHOLDER/Hl7v2DefaultTemplates.tar.gz.</span><span>Root template: ORU_R01.</span></p></div>"
        },
        "occurredDateTime": "2014-10-06T09:31:00Z",
        "recorded": "2014-10-06T09:31:00Z",
        "agent": [
          {
            "type": {
              "coding": [
                {
                  "code": "author",
                  "system": "http://terminology.hl7.org/CodeSystem/provenance-participant-type"
                }
              ]
            }
          }
        ],
        "activity": {
          "coding": [
            {
              "display": "ORU^R01^"
            }
          ]
        },
        "target": [
          {
            "reference": "Bundle/1621d98e-0f06-6ff5-bfed-87e7a90a41b6"
          }
        ]
      },
      "request": {
        "method": "PUT",
        "url": "Provenance/9f79a1ce-a1d5-c6dd-a0d6-3bc75109716c"
      }
    },
    {
      "fullUrl": "urn:uuid:bab5ca58-f272-4c06-4b3f-f9661e45a22b",
      "resource": {
        "resourceType": "Patient",
        "id": "bab5ca58-f272-4c06-4b3f-f9661e45a22b",
        "identifier": [
          {
            "value": "10006579",
            "type": {
              "coding": [
                {
                  "code": "MR",
                  "system": "http://terminology.hl7.org/CodeSystem/v2-0203",
                  "display": "Medical record number"
                }
              ]
            },
            "system": "http://example.com/v2-to-fhir-converter/assigning-authority-local-system-1"
          },
          {
            "value": "123121234",
            "type": {
              "coding": [
                {
                  "code": "SB",
                  "system": "http://terminology.hl7.org/CodeSystem/v2-0203"
                }
              ]
            },
            "system": "http://hl7.org/fhir/sid/us-ssn"
          }
        ],
        "name": [
          {
            "family": "DUCK",
            "given": [
              "DONALD",
              "D"
            ]
          }
        ],
        "birthDate": "1924-10-10",
        "gender": "male",
        "address": [
          {
            "line": [
              "111 DUCK ST"
            ],
            "city": "FOWL",
            "state": "CA",
            "postalCode": "999990000",
            "type": "postal"
          },
          {
            "district": "1"
          }
        ],
        "telecom": [
          {
            "value": "8885551212",
            "use": "home"
          },
          {
            "value": "8885551212",
            "use": "work"
          }
        ],
        "communication": [
          {
            "language": {
              "coding": [
                {
                  "code": "1",
                  "display": "1"
                }
              ]
            },
            "preferred": true
          }
        ],
        "maritalStatus": {
          "coding": [
            {
              "code": "2",
              "display": "2"
            }
          ]
        },
        "deceasedBoolean": false,
        "extension": [
          {
            "url": "http://hl7.org/fhir/us/core/StructureDefinition/us-core-race",
            "extension": [
              {
                "url": "ombCategory",
                "valueCoding": {
                  "code": "1",
                  "display": "1"
                }
              },
              {
                "url": "text",
                "valueString": "1"
              }
            ]
          }
        ]
      },
      "request": {
        "method": "PUT",
        "url": "Patient/bab5ca58-f272-4c06-4b3f-f9661e45a22b"
      }
    },
    {
      "fullUrl": "urn:uuid:58bd65b3-7fe0-55cf-19e9-b3cfbc026fbf",
      "resource": {
        "resourceType": "Account",
        "id": "58bd65b3-7fe0-55cf-19e9-b3cfbc026fbf",
        "identifier": [
          {
            "value": "40007716",
            "type": {
              "coding": [
                {
                  "code": "VN",
                  "system": "http://terminology.hl7.org/CodeSystem/v2-0203",
                  "display": "Visit number"
                }
              ]
            },
            "system": "http://example.com/v2-to-fhir-converter/assigning-authority-local-system-AccMgr"
          }
        ],
        "status": "active",
        "subject": [
          {
            "reference": "Patient/bab5ca58-f272-4c06-4b3f-f9661e45a22b"
          }
        ]
      },
      "request": {
        "method": "PUT",
        "url": "Account/58bd65b3-7fe0-55cf-19e9-b3cfbc026fbf"
      }
    },
    {
      "fullUrl": "urn:uuid:466b4ed7-0934-e86d-66ed-345f4c8bb579",
      "resource": {
        "resourceType": "Observation",
        "id": "466b4ed7-0934-e86d-66ed-345f4c8bb579",
        "status": "final",
        "code": {
          "coding": [
            {
              "code": "30180-4",
              "display": "BASOPHILS/100 LEUKOCYTES",
              "system": "http://loinc.org"
            }
          ]
        },
        "valueQuantity": {
          "value": 0,
          "unit": "%"
        },
        "effectiveDateTime": "2014-10-06T08:30:00Z",
        "interpretation": [
          {
            "coding": [
              {
                "code": "N",
                "display": "Normal",
                "system": "http://terminology.hl7.org/CodeSystem/v3-ObservationInterpretation"
              }
            ]
          }
        ],
        "subject": {
          "reference": "Patient/bab5ca58-f272-4c06-4b3f-f9661e45a22b"
        },
        "extension": [
          {
            "url": "http://example.com/v2-to-fhir-converter/Observation_Status",
            "valueCodeableConcept": {
              "coding": [
                {
                  "code": "F",
                  "display": "Final",
                  "system": "http://terminology.hl7.org/CodeSystem/v2-0085"
                }
              ],
              "text": "Final"
            }
          }
        ],
        "basedOn": [
          {
            "reference": "ServiceRequest/425b6ad3-9304-3f7b-2771-0aa0dcd954ca"
          }
        ]
      },
      "request": {
        "method": "PUT",
        "url": "Observation/466b4ed7-0934-e86d-66ed-345f4c8bb579"
      }
    },
    {
      "fullUrl": "urn:uuid:bd2df5fd-bd6e-91aa-aa66-8ef5152eefdd",
      "resource": {
        "resourceType": "Observation",
        "id": "bd2df5fd-bd6e-91aa-aa66-8ef5152eefdd",
        "status": "final",
        "code": {
          "coding": [
            {
              "code": "23761-0",
              "display": "NEUTROPHILS/100 LEUKOCYTES",
              "system": "http://loinc.org"
            }
          ]
        },
        "valueQuantity": {
          "value": 72,
          "unit": "%"
        },
        "effectiveDateTime": "2014-10-06T08:30:00Z",
        "interpretation": [
          {
            "coding": [
              {
                "code": "N",
                "display": "Normal",
                "system": "http://terminology.hl7.org/CodeSystem/v3-ObservationInterpretation"
              }
            ]
          }
        ],
        "subject": {
          "reference": "Patient/bab5ca58-f272-4c06-4b3f-f9661e45a22b"
        },
        "extension": [
          {
            "url": "http://example.com/v2-to-fhir-converter/Observation_Status",
            "valueCodeableConcept": {
              "coding": [
                {
                  "code": "F",
                  "display": "Final",
                  "system": "http://terminology.hl7.org/CodeSystem/v2-0085"
                }
              ],
              "text": "Final"
            }
          }
        ],
        "basedOn": [
          {
            "reference": "ServiceRequest/425b6ad3-9304-3f7b-2771-0aa0dcd954ca"
          }
        ]
      },
      "request": {
        "method": "PUT",
        "url": "Observation/bd2df5fd-bd6e-91aa-aa66-8ef5152eefdd"
      }
    },
    {
      "fullUrl": "urn:uuid:f57164ad-b034-7aa9-d7ef-706219143b23",
      "resource": {
        "resourceType": "Observation",
        "id": "f57164ad-b034-7aa9-d7ef-706219143b23",
        "status": "final",
        "code": {
          "coding": [
            {
              "code": "26450-7",
              "display": "EOSINOPHILS/100 LEUKOCYTES",
              "system": "http://loinc.org"
            }
          ]
        },
        "valueQuantity": {
          "value": 2,
          "unit": "%"
        },
        "effectiveDateTime": "2014-10-06T08:30:00Z",
        "interpretation": [
          {
            "coding": [
              {
                "code": "N",
                "display": "Normal",
                "system": "http://terminology.hl7.org/CodeSystem/v3-ObservationInterpretation"
              }
            ]
          }
        ],
        "subject": {
          "reference": "Patient/bab5ca58-f272-4c06-4b3f-f9661e45a22b"
        },
        "extension": [
          {
            "url": "http://example.com/v2-to-fhir-converter/Observation_Status",
            "valueCodeableConcept": {
              "coding": [
                {
                  "code": "F",
                  "display": "Final",
                  "system": "http://terminology.hl7.org/CodeSystem/v2-0085"
                }
              ],
              "text": "Final"
            }
          }
        ],
        "basedOn": [
          {
            "reference": "ServiceRequest/425b6ad3-9304-3f7b-2771-0aa0dcd954ca"
          }
        ]
      },
      "request": {
        "method": "PUT",
        "url": "Observation/f57164ad-b034-7aa9-d7ef-706219143b23"
      }
    },
    {
      "fullUrl": "urn:uuid:699fe397-f0bd-452b-9219-e84c221a083e",
      "resource": {
        "resourceType": "Observation",
        "id": "699fe397-f0bd-452b-9219-e84c221a083e",
        "status": "final",
        "code": {
          "coding": [
            {
              "code": "26478-8",
              "display": "LYMPHOCYTES/100 LEUKOCYTES",
              "system": "http://loinc.org"
            }
          ]
        },
        "valueQuantity": {
          "value": 20,
          "unit": "%"
        },
        "effectiveDateTime": "2014-10-06T08:30:00Z",
        "interpretation": [
          {
            "coding": [
              {
                "code": "N",
                "display": "Normal",
                "system": "http://terminology.hl7.org/CodeSystem/v3-ObservationInterpretation"
              }
            ]
          }
        ],
        "subject": {
          "reference": "Patient/bab5ca58-f272-4c06-4b3f-f9661e45a22b"
        },
        "extension": [
          {
            "url": "http://example.com/v2-to-fhir-converter/Observation_Status",
            "valueCodeableConcept": {
              "coding": [
                {
                  "code": "F",
                  "display": "Final",
                  "system": "http://terminology.hl7.org/CodeSystem/v2-0085"
                }
              ],
              "text": "Final"
            }
          }
        ],
        "basedOn": [
          {
            "reference": "ServiceRequest/425b6ad3-9304-3f7b-2771-0aa0dcd954ca"
          }
        ]
      },
      "request": {
        "method": "PUT",
        "url": "Observation/699fe397-f0bd-452b-9219-e84c221a083e"
      }
    },
    {
      "fullUrl": "urn:uuid:d9042136-d78a-d9a8-1e67-fedf466c66d6",
      "resource": {
        "resourceType": "Observation",
        "id": "d9042136-d78a-d9a8-1e67-fedf466c66d6",
        "status": "final",
        "code": {
          "coding": [
            {
              "code": "26485-3",
              "display": "MONOCYTES/100 LEUKOCYTES",
              "system": "http://loinc.org"
            }
          ]
        },
        "valueQuantity": {
          "value": 6,
          "unit": "%"
        },
        "effectiveDateTime": "2014-10-06T08:30:00Z",
        "interpretation": [
          {
            "coding": [
              {
                "code": "N",
                "display": "Normal",
                "system": "http://terminology.hl7.org/CodeSystem/v3-ObservationInterpretation"
              }
            ]
          }
        ],
        "subject": {
          "reference": "Patient/bab5ca58-f272-4c06-4b3f-f9661e45a22b"
        },
        "extension": [
          {
            "url": "http://example.com/v2-to-fhir-converter/Observation_Status",
            "valueCodeableConcept": {
              "coding": [
                {
                  "code": "F",
                  "display": "Final",
                  "system": "http://terminology.hl7.org/CodeSystem/v2-0085"
                }
              ],
              "text": "Final"
            }
          }
        ],
        "basedOn": [
          {
            "reference": "ServiceRequest/425b6ad3-9304-3f7b-2771-0aa0dcd954ca"
          }
        ]
      },
      "request": {
        "method": "PUT",
        "url": "Observation/d9042136-d78a-d9a8-1e67-fedf466c66d6"
      }
    },
    {
      "fullUrl": "urn:uuid:425b6ad3-9304-3f7b-2771-0aa0dcd954ca",
      "resource": {
        "resourceType": "ServiceRequest",
        "id": "425b6ad3-9304-3f7b-2771-0aa0dcd954ca",
        "status": "active",
        "intent": "filler-order",
        "identifier": [
          {
            "value": "855238581",
            "type": {
              "coding": [
                {
                  "code": "PLAC",
                  "system": "http://terminology.hl7.org/CodeSystem/v2-0203"
                }
              ]
            }
          },
          {
            "value": "890775544",
            "type": {
              "coding": [
                {
                  "code": "FILL",
                  "system": "http://terminology.hl7.org/CodeSystem/v2-0203"
                }
              ]
            }
          }
        ],
        "code": {
          "coding": [
            {
              "code": "26464-8",
              "display": "Differential WBC Count, buffy coat",
              "system": "http://loinc.org"
            }
          ]
        },
        "subject": {
          "reference": "Patient/bab5ca58-f272-4c06-4b3f-f9661e45a22b"
        },
        "requester": {
          "reference": "PractitionerRole/907170a0-a8af-89c5-5a30-6b78cdb227c5"
        },
        "specimen": [
          {
            "reference": "Specimen/d01604b5-df87-3815-c011-7922059ac80c"
          }
        ]
      },
      "request": {
        "method": "PUT",
        "url": "ServiceRequest/425b6ad3-9304-3f7b-2771-0aa0dcd954ca"
      }
    },
    {
      "fullUrl": "urn:uuid:15decf11-00dc-6867-9c35-ffd79977d5b9",
      "resource": {
        "resourceType": "Practitioner",
        "id": "15decf11-00dc-6867-9c35-ffd79977d5b9",
        "name": [
          {
            "family": "URO",
            "prefix": [
              "DR"
            ]
          }
        ]
      },
      "request": {
        "method": "PUT",
        "url": "Practitioner/15decf11-00dc-6867-9c35-ffd79977d5b9"
      }
    },
    {
      "fullUrl": "urn:uuid:907170a0-a8af-89c5-5a30-6b78cdb227c5",
      "resource": {
        "resourceType": "PractitionerRole",
        "id": "907170a0-a8af-89c5-5a30-6b78cdb227c5",
        "code": [
          {
            "coding": [
              {
                "code": "ordering-provider",
                "display": "Ordering Provider",
                "system": "http://example.com/v2-to-fhir-converter/CodeSystem/PractitionerRole"
              }
            ]
          }
        ],
        "practitioner": {
          "reference": "Practitioner/15decf11-00dc-6867-9c35-ffd79977d5b9"
        }
      },
      "request": {
        "method": "PUT",
        "url": "PractitionerRole/907170a0-a8af-89c5-5a30-6b78cdb227c5"
      }
    },
    {
      "fullUrl": "urn:uuid:8714ee77-7429-9b69-3f67-35e77caf543d",
      "resource": {
        "resourceType": "DiagnosticReport",
        "id": "8714ee77-7429-9b69-3f67-35e77caf543d",
        "identifier": [
          {
            "value": "855238581",
            "type": {
              "coding": [
                {
                  "code": "PLAC",
                  "system": "http://terminology.hl7.org/CodeSystem/v2-0203"
                }
              ]
            }
          },
          {
            "value": "890775544",
            "type": {
              "coding": [
                {
                  "code": "FILL",
                  "system": "http://terminology.hl7.org/CodeSystem/v2-0203"
                }
              ]
            }
          }
        ],
        "code": {
          "coding": [
            {
              "code": "26464-8",
              "display": "Differential WBC Count, buffy coat",
              "system": "http://loinc.org"
            }
          ]
        },
        "status": "unknown",
        "subject": {
          "reference": "Patient/bab5ca58-f272-4c06-4b3f-f9661e45a22b"
        },
        "basedOn": [
          {
            "reference": "ServiceRequest/425b6ad3-9304-3f7b-2771-0aa0dcd954ca"
          }
        ],
        "specimen": [
          {
            "reference": "Specimen/d01604b5-df87-3815-c011-7922059ac80c"
          }
        ],
        "result": [
          {
            "reference": "Observation/466b4ed7-0934-e86d-66ed-345f4c8bb579"
          },
          {
            "reference": "Observation/bd2df5fd-bd6e-91aa-aa66-8ef5152eefdd"
          },
          {
            "reference": "Observation/f57164ad-b034-7aa9-d7ef-706219143b23"
          },
          {
            "reference": "Observation/699fe397-f0bd-452b-9219-e84c221a083e"
          },
          {
            "reference": "Observation/d9042136-d78a-d9a8-1e67-fedf466c66d6"
          }
        ]
      },
      "request": {
        "method": "PUT",
        "url": "DiagnosticReport/8714ee77-7429-9b69-3f67-35e77caf543d"
      }
    },
    {
      "fullUrl": "urn:uuid:d01604b5-df87-3815-c011-7922059ac80c",
      "resource": {
        "resourceType": "Specimen",
        "id": "d01604b5-df87-3815-c011-7922059ac80c",
        "identifier": [
          {
            "value": "855238581",
            "type": {
              "coding": [
                {
                  "code": "PLAC",
                  "system": "http://terminology.hl7.org/CodeSystem/v2-0203"
                }
              ]
            }
          },
          {
            "value": "890775544",
            "type": {
              "coding": [
                {
                  "code": "FILL",
                  "system": "http://terminology.hl7.org/CodeSystem/v2-0203"
                }
              ]
            }
          }
        ],
        "collection": {
          "collector": {
            "reference": "PractitionerRole/be571888-010e-9a32-e87f-f1ee1bd631a8"
          }
        }
      },
      "request": {
        "method": "PUT",
        "url": "Specimen/d01604b5-df87-3815-c011-7922059ac80c"
      }
    },
    {
      "fullUrl": "urn:uuid:da437276-fd7c-eb21-1885-4041aa59c483",
      "resource": {
        "resourceType": "Practitioner",
        "id": "da437276-fd7c-eb21-1885-4041aa59c483",
        "name": [
          {
            "family": "COLLECT",
            "given": [
              "JOHN"
            ]
          }
        ]
      },
      "request": {
        "method": "PUT",
        "url": "Practitioner/da437276-fd7c-eb21-1885-4041aa59c483"
      }
    },
    {
      "fullUrl": "urn:uuid:be571888-010e-9a32-e87f-f1ee1bd631a8",
      "resource": {
        "resourceType": "PractitionerRole",
        "id": "be571888-010e-9a32-e87f-f1ee1bd631a8",
        "practitioner": {
          "reference": "Practitioner/da437276-fd7c-eb21-1885-4041aa59c483"
        }
      },
      "request": {
        "method": "PUT",
        "url": "PractitionerRole/be571888-010e-9a32-e87f-f1ee1bd631a8"
      }
    },
    {
      "fullUrl": "urn:uuid:476a0ffd-2a1a-40e2-d6ab-d9b567c91438",
      "resource": {
        "resourceType": "Specimen",
        "id": "476a0ffd-2a1a-40e2-d6ab-d9b567c91438",
        "identifier": [
          {
            "value": "SpecimenID",
            "type": {
              "coding": [
                {
                  "code": "PGN",
                  "system": "http://terminology.hl7.org/CodeSystem/v2-0203"
                }
              ]
            }
          }
        ],
        "type": {
          "coding": [
            {
              "code": "BLD",
              "system": "http://terminology.hl7.org/CodeSystem/v2-0487"
            }
          ]
        },
        "collection": {
          "collectedDateTime": "2014-10-06T05:35:00Z"
        },
        "receivedTime": "2014-10-06T06:21:00Z",
        "status": "available"
      },
      "request": {
        "method": "PUT",
        "url": "Specimen/476a0ffd-2a1a-40e2-d6ab-d9b567c91438"
      }
    },
    {
      "fullUrl": "urn:uuid:9575107b-1151-6ae6-dcb3-f6de1b450850",
      "resource": {
        "resourceType": "Observation",
        "id": "9575107b-1151-6ae6-dcb3-f6de1b450850",
        "status": "final",
        "code": {
          "coding": [
            {
              "code": "20509-6",
              "display": "HEMOGLOBIN",
              "system": "http://loinc.org"
            }
          ]
        },
        "valueQuantity": {
          "value": 13.4,
          "unit": "g/l-1"
        },
        "effectiveDateTime": "2014-10-06T08:30:00Z",
        "interpretation": [
          {
            "coding": [
              {
                "code": "N",
                "display": "Normal",
                "system": "http://terminology.hl7.org/CodeSystem/v3-ObservationInterpretation"
              }
            ]
          }
        ],
        "subject": {
          "reference": "Patient/bab5ca58-f272-4c06-4b3f-f9661e45a22b"
        },
        "specimen": {
          "reference": "Specimen/476a0ffd-2a1a-40e2-d6ab-d9b567c91438"
        },
        "extension": [
          {
            "url": "http://example.com/v2-to-fhir-converter/Observation_Status",
            "valueCodeableConcept": {
              "coding": [
                {
                  "code": "F",
                  "display": "Final",
                  "system": "http://terminology.hl7.org/CodeSystem/v2-0085"
                }
              ],
              "text": "Final"
            }
          }
        ],
        "basedOn": [
          {
            "reference": "ServiceRequest/5c4619c4-2cf9-44bb-a2cd-262665709d4a"
          }
        ]
      },
      "request": {
        "method": "PUT",
        "url": "Observation/9575107b-1151-6ae6-dcb3-f6de1b450850"
      }
    },
    {
      "fullUrl": "urn:uuid:126e4973-2bcd-dd13-34e2-60879eb28a00",
      "resource": {
        "resourceType": "Observation",
        "id": "126e4973-2bcd-dd13-34e2-60879eb28a00",
        "status": "final",
        "code": {
          "coding": [
            {
              "code": "11156-7",
              "display": "LEUKOCYTES",
              "system": "http://loinc.org"
            }
          ]
        },
        "valueQuantity": {
          "value": 8.2,
          "unit": "giga.l-1"
        },
        "effectiveDateTime": "2014-10-06T08:30:00Z",
        "interpretation": [
          {
            "coding": [
              {
                "code": "N",
                "display": "Normal",
                "system": "http://terminology.hl7.org/CodeSystem/v3-ObservationInterpretation"
              }
            ]
          }
        ],
        "subject": {
          "reference": "Patient/bab5ca58-f272-4c06-4b3f-f9661e45a22b"
        },
        "specimen": {
          "reference": "Specimen/476a0ffd-2a1a-40e2-d6ab-d9b567c91438"
        },
        "extension": [
          {
            "url": "http://example.com/v2-to-fhir-converter/Observation_Status",
            "valueCodeableConcept": {
              "coding": [
                {
                  "code": "F",
                  "display": "Final",
                  "system": "http://terminology.hl7.org/CodeSystem/v2-0085"
                }
              ],
              "text": "Final"
            }
          }
        ],
        "basedOn": [
          {
            "reference": "ServiceRequest/5c4619c4-2cf9-44bb-a2cd-262665709d4a"
          }
        ]
      },
      "request": {
        "method": "PUT",
        "url": "Observation/126e4973-2bcd-dd13-34e2-60879eb28a00"
      }
    },
    {
      "fullUrl": "urn:uuid:a549f8ed-bd36-6504-d504-ab851db8ad93",
      "resource": {
        "resourceType": "Observation",
        "id": "a549f8ed-bd36-6504-d504-ab851db8ad93",
        "status": "final",
        "code": {
          "coding": [
            {
              "code": "11273-0",
              "display": "ERYTHROCYTES",
              "system": "http://loinc.org"
            }
          ]
        },
        "valueQuantity": {
          "value": 4.08,
          "unit": "tera.l-1"
        },
        "effectiveDateTime": "2014-10-06T08:30:00Z",
        "interpretation": [
          {
            "coding": [
              {
                "code": "N",
                "display": "Normal",
                "system": "http://terminology.hl7.org/CodeSystem/v3-ObservationInterpretation"
              }
            ]
          }
        ],
        "subject": {
          "reference": "Patient/bab5ca58-f272-4c06-4b3f-f9661e45a22b"
        },
        "specimen": {
          "reference": "Specimen/476a0ffd-2a1a-40e2-d6ab-d9b567c91438"
        },
        "extension": [
          {
            "url": "http://example.com/v2-to-fhir-converter/Observation_Status",
            "valueCodeableConcept": {
              "coding": [
                {
                  "code": "F",
                  "display": "Final",
                  "system": "http://terminology.hl7.org/CodeSystem/v2-0085"
                }
              ],
              "text": "Final"
            }
          }
        ],
        "basedOn": [
          {
            "reference": "ServiceRequest/5c4619c4-2cf9-44bb-a2cd-262665709d4a"
          }
        ]
      },
      "request": {
        "method": "PUT",
        "url": "Observation/a549f8ed-bd36-6504-d504-ab851db8ad93"
      }
    },
    {
      "fullUrl": "urn:uuid:b5247f57-bcf9-f95f-d278-baf1fc67f333",
      "resource": {
        "resourceType": "Observation",
        "id": "b5247f57-bcf9-f95f-d278-baf1fc67f333",
        "status": "final",
        "code": {
          "coding": [
            {
              "code": "20570-8",
              "display": "HEMATOCRIT",
              "system": "http://loinc.org"
            }
          ]
        },
        "valueQuantity": {
          "value": 39.7,
          "unit": "%"
        },
        "effectiveDateTime": "2014-10-06T08:30:00Z",
        "interpretation": [
          {
            "coding": [
              {
                "code": "N",
                "display": "Normal",
                "system": "http://terminology.hl7.org/CodeSystem/v3-ObservationInterpretation"
              }
            ]
          }
        ],
        "subject": {
          "reference": "Patient/bab5ca58-f272-4c06-4b3f-f9661e45a22b"
        },
        "specimen": {
          "reference": "Specimen/476a0ffd-2a1a-40e2-d6ab-d9b567c91438"
        },
        "extension": [
          {
            "url": "http://example.com/v2-to-fhir-converter/Observation_Status",
            "valueCodeableConcept": {
              "coding": [
                {
                  "code": "F",
                  "display": "Final",
                  "system": "http://terminology.hl7.org/CodeSystem/v2-0085"
                }
              ],
              "text": "Final"
            }
          }
        ],
        "basedOn": [
          {
            "reference": "ServiceRequest/5c4619c4-2cf9-44bb-a2cd-262665709d4a"
          }
        ]
      },
      "request": {
        "method": "PUT",
        "url": "Observation/b5247f57-bcf9-f95f-d278-baf1fc67f333"
      }
    },
    {
      "fullUrl": "urn:uuid:ba3aaa3f-061d-c8be-e91d-183c137269f8",
      "resource": {
        "resourceType": "Observation",
        "id": "ba3aaa3f-061d-c8be-e91d-183c137269f8",
        "status": "final",
        "code": {
          "coding": [
            {
              "code": "11125-2",
              "display": "PLATELETS",
              "system": "http://loinc.org"
            }
          ]
        },
        "valueQuantity": {
          "value": 220,
          "unit": "giga.l-1"
        },
        "effectiveDateTime": "2014-10-06T08:30:00Z",
        "interpretation": [
          {
            "coding": [
              {
                "code": "N",
                "display": "Normal",
                "system": "http://terminology.hl7.org/CodeSystem/v3-ObservationInterpretation"
              }
            ]
          }
        ],
        "subject": {
          "reference": "Patient/bab5ca58-f272-4c06-4b3f-f9661e45a22b"
        },
        "specimen": {
          "reference": "Specimen/476a0ffd-2a1a-40e2-d6ab-d9b567c91438"
        },
        "extension": [
          {
            "url": "http://example.com/v2-to-fhir-converter/Observation_Status",
            "valueCodeableConcept": {
              "coding": [
                {
                  "code": "F",
                  "display": "Final",
                  "system": "http://terminology.hl7.org/CodeSystem/v2-0085"
                }
              ],
              "text": "Final"
            }
          }
        ],
        "basedOn": [
          {
            "reference": "ServiceRequest/5c4619c4-2cf9-44bb-a2cd-262665709d4a"
          }
        ]
      },
      "request": {
        "method": "PUT",
        "url": "Observation/ba3aaa3f-061d-c8be-e91d-183c137269f8"
      }
    },
    {
      "fullUrl": "urn:uuid:5c4619c4-2cf9-44bb-a2cd-262665709d4a",
      "resource": {
        "resourceType": "ServiceRequest",
        "id": "5c4619c4-2cf9-44bb-a2cd-262665709d4a",
        "status": "active",
        "intent": "filler-order",
        "identifier": [
          {
            "value": "88502218",
            "type": {
              "coding": [
                {
                  "code": "PLAC",
                  "system": "http://terminology.hl7.org/CodeSystem/v2-0203"
                }
              ]
            }
          },
          {
            "value": "82503246",
            "type": {
              "coding": [
                {
                  "code": "FILL",
                  "system": "http://terminology.hl7.org/CodeSystem/v2-0203"
                }
              ]
            }
          }
        ],
        "code": {
          "coding": [
            {
              "code": "24317-0",
              "display": "Hemogram and platelet count, automated",
              "system": "http://loinc.org"
            }
          ]
        },
        "subject": {
          "reference": "Patient/bab5ca58-f272-4c06-4b3f-f9661e45a22b"
        },
        "requester": {
          "reference": "PractitionerRole/907170a0-a8af-89c5-5a30-6b78cdb227c5"
        },
        "specimen": [
          {
            "reference": "Specimen/2447ea17-18c3-9de8-6294-80b089d61417"
          }
        ]
      },
      "request": {
        "method": "PUT",
        "url": "ServiceRequest/5c4619c4-2cf9-44bb-a2cd-262665709d4a"
      }
    },
    {
      "fullUrl": "urn:uuid:83728b59-c52e-f9a3-91ce-653d82522728",
      "resource": {
        "resourceType": "DiagnosticReport",
        "id": "83728b59-c52e-f9a3-91ce-653d82522728",
        "identifier": [
          {
            "value": "88502218",
            "type": {
              "coding": [
                {
                  "code": "PLAC",
                  "system": "http://terminology.hl7.org/CodeSystem/v2-0203"
                }
              ]
            }
          },
          {
            "value": "82503246",
            "type": {
              "coding": [
                {
                  "code": "FILL",
                  "system": "http://terminology.hl7.org/CodeSystem/v2-0203"
                }
              ]
            }
          }
        ],
        "code": {
          "coding": [
            {
              "code": "24317-0",
              "display": "Hemogram and platelet count, automated",
              "system": "http://loinc.org"
            }
          ]
        },
        "status": "unknown",
        "subject": {
          "reference": "Patient/bab5ca58-f272-4c06-4b3f-f9661e45a22b"
        },
        "basedOn": [
          {
            "reference": "ServiceRequest/5c4619c4-2cf9-44bb-a2cd-262665709d4a"
          }
        ],
        "specimen": [
          {
            "reference": "Specimen/2447ea17-18c3-9de8-6294-80b089d61417"
          }
        ],
        "result": [
          {
            "reference": "Observation/9575107b-1151-6ae6-dcb3-f6de1b450850"
          },
          {
            "reference": "Observation/126e4973-2bcd-dd13-34e2-60879eb28a00"
          },
          {
            "reference": "Observation/a549f8ed-bd36-6504-d504-ab851db8ad93"
          },
          {
            "reference": "Observation/b5247f57-bcf9-f95f-d278-baf1fc67f333"
          },
          {
            "reference": "Observation/ba3aaa3f-061d-c8be-e91d-183c137269f8"
          }
        ]
      },
      "request": {
        "method": "PUT",
        "url": "DiagnosticReport/83728b59-c52e-f9a3-91ce-653d82522728"
      }
    },
    {
      "fullUrl": "urn:uuid:2447ea17-18c3-9de8-6294-80b089d61417",
      "resource": {
        "resourceType": "Specimen",
        "id": "2447ea17-18c3-9de8-6294-80b089d61417",
        "identifier": [
          {
            "value": "88502218",
            "type": {
              "coding": [
                {
                  "code": "PLAC",
                  "system": "http://terminology.hl7.org/CodeSystem/v2-0203"
                }
              ]
            }
          },
          {
            "value": "82503246",
            "type": {
              "coding": [
                {
                  "code": "FILL",
                  "system": "http://terminology.hl7.org/CodeSystem/v2-0203"
                }
              ]
            }
          }
        ],
        "collection": {
          "collector": {
            "reference": "PractitionerRole/be571888-010e-9a32-e87f-f1ee1bd631a8"
          }
        }
      },
      "request": {
        "method": "PUT",
        "url": "Specimen/2447ea17-18c3-9de8-6294-80b089d61417"
      }
    }
  ]
}